File: data_spot_analyzer/spectra/B11.emsa
#FORMAT      : EMSA/MAS Spectral Data File
#VERSION     : 1.0
#TITLE       : B11
#DATE        : 08-APR-2019
#TIME        : 14:42
#OWNER       :
#NPOINTS     : 2048.0
#NCOLUMNS    : 1.0
#XUNITS      : keV
#YUNITS      : counts
#DATATYPE    : XY
#XPERCHAN    : 0.01
#OFFSET      : -0.2
#SIGNALTYPE  : EDS
#CHOFFSET    : 20.0
#LIVETIME    : 60.0
#REALTIME    : 61.0112
#BEAMKV      : 200.0
#MAGCAM      : 60000.0
#XTILTSTGE   : 23.99
#AZIMANGLE   : 0.0
#ELEVANGLE   : 18.6
#XPOSITION mm: 0.0000
#YPOSITION mm: 0.0000
#ZPOSITION mm: 0.0000
##OXINSTPT   : 4
##OXINSTSTROB: 46.66
##OXINSTELEMS: 14,31,33,51,8,6,29,83
##OXINSTLABEL: 14, 1.740, Si
##OXINSTLABEL: 31, 9.252, Ga
##OXINSTLABEL: 31, 10.264, Ga
##OXINSTLABEL: 31, 1.098, Ga
##OXINSTLABEL: 31, 0.984, Ga
##OXINSTLABEL: 31, 0.957, Ga
##OXINSTLABEL: 33, 10.544, As
##OXINSTLABEL: 33, 11.726, As
##OXINSTLABEL: 33, 1.282, As
##OXINSTLABEL: 33, 1.155, As
##OXINSTLABEL: 33, 1.120, As
##OXINSTLABEL: 51, 3.605, Sb
##OXINSTLABEL: 51, 3.844, Sb
##OXINSTLABEL: 51, 4.101, Sb
##OXINSTLABEL: 51, 3.437, Sb
##OXINSTLABEL: 51, 4.348, Sb
##OXINSTLABEL: 51, 4.600, Sb
##OXINSTLABEL: 51, 3.189, Sb
##OXINSTLABEL: 51, 0.429, Sb
##OXINSTLABEL: 8, 0.525, O
##OXINSTLABEL: 6, 0.277, C
##OXINSTLABEL: 29, 8.048, Cu
##OXINSTLABEL: 29, 8.905, Cu
##OXINSTLABEL: 29, 0.930, Cu
##OXINSTLABEL: 29, 0.832, Cu
##OXINSTLABEL: 29, 0.811, Cu
##OXINSTLABEL: 83, 10.839, Bi
##OXINSTLABEL: 83, 13.024, Bi
##OXINSTLABEL: 83, 12.980, Bi
##OXINSTLABEL: 83, 11.712, Bi
##OXINSTLABEL: 83, 15.248, Bi
##OXINSTLABEL: 83, 15.583, Bi
##OXINSTLABEL: 83, 9.420, Bi
##OXINSTLABEL: 83, 2.423, Bi
##OXINSTLABEL: 83, 2.526, Bi
##OXINSTLABEL: 83, 2.736, Bi
##OXINSTLABEL: 83, 1.883, Bi
##OXINSTLABEL: 83, 3.234, Bi
#SPECTRUM    : Spectral Data Starts Here
-0.20000, 0.0
-0.18000, 0.0
-0.16000, 0.0
-0.14000, 0.0
-0.12000, 0.0
-0.10000, 0.0
-0.08000, 0.0
-0.06000, 6.0
-0.04000, 87.0
-0.02000, 530.0
0.00000, 1514.0
0.02000, 2496.0
0.04000, 3270.0
0.06000, 2496.0
0.08000, 704.0
0.10000, 85.0
0.12000, 12.0
0.14000, 10.0
0.16000, 8.0
0.18000, 10.0
0.20000, 13.0
0.22000, 21.0
0.24000, 83.0
0.26000, 151.0
0.28000, 181.0
0.30000, 93.0
0.32000, 31.0
0.34000, 8.0
0.36000, 4.0
0.38000, 4.0
0.40000, 11.0
0.42000, 9.0
0.44000, 14.0
0.46000, 10.0
0.48000, 5.0
0.50000, 14.0
0.52000, 13.0
0.54000, 8.0
0.56000, 12.0
0.58000, 12.0
0.60000, 6.0
0.62000, 10.0
0.64000, 4.0
0.66000, 6.0
0.68000, 7.0
0.70000, 8.0
0.72000, 6.0
0.74000, 7.0
0.76000, 7.0
0.78000, 10.0
0.80000, 9.0
0.82000, 10.0
0.84000, 7.0
0.86000, 10.0
0.88000, 9.0
0.90000, 24.0
0.92000, 22.0
0.94000, 36.0
0.96000, 33.0
0.98000, 27.0
1.00000, 18.0
1.02000, 21.0
1.04000, 39.0
1.06000, 88.0
1.08000, 179.0
1.10000, 257.0
1.12000, 257.0
1.14000, 182.0
1.16000, 102.0
1.18000, 48.0
1.20000, 26.0
1.22000, 29.0
1.24000, 61.0
1.26000, 102.0
1.28000, 138.0
1.30000, 169.0
1.32000, 122.0
1.34000, 72.0
1.36000, 39.0
1.38000, 16.0
1.40000, 14.0
1.42000, 5.0
1.44000, 3.0
1.46000, 9.0
1.48000, 9.0
1.50000, 3.0
1.52000, 4.0
1.54000, 4.0
1.56000, 2.0
1.58000, 5.0
1.60000, 5.0
1.62000, 2.0
1.64000, 5.0
1.66000, 5.0
1.68000, 5.0
1.70000, 2.0
1.72000, 4.0
1.74000, 6.0
1.76000, 11.0
1.78000, 5.0
1.80000, 5.0
1.82000, 4.0
1.84000, 5.0
1.86000, 6.0
1.88000, 3.0
1.90000, 4.0
1.92000, 4.0
1.94000, 6.0
1.96000, 7.0
1.98000, 7.0
2.00000, 5.0
2.02000, 4.0
2.04000, 4.0
2.06000, 4.0
2.08000, 5.0
2.10000, 5.0
2.12000, 5.0
2.14000, 5.0
2.16000, 9.0
2.18000, 9.0
2.20000, 3.0
2.22000, 3.0
2.24000, 1.0
2.26000, 2.0
2.28000, 6.0
2.30000, 4.0
2.32000, 3.0
2.34000, 3.0
2.36000, 4.0
2.38000, 1.0
2.40000, 6.0
2.42000, 1.0
2.44000, 3.0
2.46000, 4.0
2.48000, 5.0
2.50000, 5.0
2.52000, 2.0
2.54000, 4.0
2.56000, 1.0
2.58000, 4.0
2.60000, 3.0
2.62000, 5.0
2.64000, 5.0
2.66000, 2.0
2.68000, 3.0
2.70000, 4.0
2.72000, 2.0
2.74000, 4.0
2.76000, 2.0
2.78000, 3.0
2.80000, 4.0
2.82000, 1.0
2.84000, 2.0
2.86000, 3.0
2.88000, 5.0
2.90000, 3.0
2.92000, 5.0
2.94000, 5.0
2.96000, 6.0
2.98000, 3.0
3.00000, 2.0
3.02000, 1.0
3.04000, 1.0
3.06000, 4.0
3.08000, 6.0
3.10000, 3.0
3.12000, 2.0
3.14000, 1.0
3.16000, 6.0
3.18000, 3.0
3.20000, 8.0
3.22000, 6.0
3.24000, 4.0
3.26000, 3.0
3.28000, 3.0
3.30000, 3.0
3.32000, 5.0
3.34000, 3.0
3.36000, 3.0
3.38000, 4.0
3.40000, 4.0
3.42000, 2.0
3.44000, 4.0
3.46000, 5.0
3.48000, 4.0
3.50000, 7.0
3.52000, 11.0
3.54000, 21.0
3.56000, 26.0
3.58000, 40.0
3.60000, 60.0
3.62000, 53.0
3.64000, 44.0
3.66000, 29.0
3.68000, 16.0
3.70000, 8.0
3.72000, 7.0
3.74000, 6.0
3.76000, 11.0
3.78000, 11.0
3.80000, 18.0
3.82000, 24.0
3.84000, 23.0
3.86000, 21.0
3.88000, 22.0
3.90000, 14.0
3.92000, 11.0
3.94000, 8.0
3.96000, 7.0
3.98000, 9.0
4.00000, 4.0
4.02000, 8.0
4.04000, 7.0
4.06000, 5.0
4.08000, 7.0
4.10000, 10.0
4.12000, 8.0
4.14000, 5.0
4.16000, 7.0
4.18000, 5.0
4.20000, 4.0
4.22000, 1.0
4.24000, 4.0
4.26000, 4.0
4.28000, 1.0
4.30000, 3.0
4.32000, 6.0
4.34000, 4.0
4.36000, 5.0
4.38000, 4.0
4.40000, 6.0
4.42000, 4.0
4.44000, 4.0
4.46000, 2.0
4.48000, 2.0
4.50000, 0.0
4.52000, 1.0
4.54000, 3.0
4.56000, 0.0
4.58000, 3.0
4.60000, 3.0
4.62000, 2.0
4.64000, 4.0
4.66000, 3.0
4.68000, 3.0
4.70000, 2.0
4.72000, 1.0
4.74000, 2.0
4.76000, 1.0
4.78000, 5.0
4.80000, 2.0
4.82000, 1.0
4.84000, 2.0
4.86000, 2.0
4.88000, 2.0
4.90000, 1.0
4.92000, 2.0
4.94000, 2.0
4.96000, 3.0
4.98000, 1.0
5.00000, 3.0
5.02000, 2.0
5.04000, 1.0
5.06000, 3.0
5.08000, 1.0
5.10000, 1.0
5.12000, 0.0
5.14000, 3.0
5.16000, 2.0
5.18000, 1.0
5.20000, 3.0
5.22000, 2.0
5.24000, 2.0
5.26000, 2.0
5.28000, 2.0
5.30000, 2.0
5.32000, 2.0
5.34000, 2.0
5.36000, 1.0
5.38000, 1.0
5.40000, 2.0
5.42000, 0.0
5.44000, 5.0
5.46000, 2.0
5.48000, 3.0
5.50000, 2.0
5.52000, 3.0
5.54000, 1.0
5.56000, 2.0
5.58000, 2.0
5.60000, 1.0
5.62000, 3.0
5.64000, 0.0
5.66000, 1.0
5.68000, 2.0
5.70000, 2.0
5.72000, 4.0
5.74000, 3.0
5.76000, 1.0
5.78000, 2.0
5.80000, 3.0
5.82000, 2.0
5.84000, 3.0
5.86000, 1.0
5.88000, 3.0
5.90000, 2.0
5.92000, 3.0
5.94000, 2.0
5.96000, 0.0
5.98000, 1.0
6.00000, 2.0
6.02000, 2.0
6.04000, 1.0
6.06000, 2.0
6.08000, 2.0
6.10000, 0.0
6.12000, 1.0
6.14000, 4.0
6.16000, 3.0
6.18000, 0.0
6.20000, 3.0
6.22000, 0.0
6.24000, 3.0
6.26000, 0.0
6.28000, 1.0
6.30000, 2.0
6.32000, 2.0
6.34000, 1.0
6.36000, 2.0
6.38000, 2.0
6.40000, 2.0
6.42000, 3.0
6.44000, 0.0
6.46000, 1.0
6.48000, 3.0
6.50000, 1.0
6.52000, 2.0
6.54000, 2.0
6.56000, 2.0
6.58000, 0.0
6.60000, 0.0
6.62000, 2.0
6.64000, 1.0
6.66000, 3.0
6.68000, 1.0
6.70000, 2.0
6.72000, 2.0
6.74000, 1.0
6.76000, 1.0
6.78000, 3.0
6.80000, 0.0
6.82000, 2.0
6.84000, 1.0
6.86000, 0.0
6.88000, 3.0
6.90000, 2.0
6.92000, 3.0
6.94000, 3.0
6.96000, 0.0
6.98000, 2.0
7.00000, 0.0
7.02000, 2.0
7.04000, 0.0
7.06000, 2.0
7.08000, 0.0
7.10000, 1.0
7.12000, 3.0
7.14000, 0.0
7.16000, 1.0
7.18000, 1.0
7.20000, 1.0
7.22000, 2.0
7.24000, 2.0
7.26000, 1.0
7.28000, 0.0
7.30000, 3.0
7.32000, 0.0
7.34000, 2.0
7.36000, 2.0
7.38000, 2.0
7.40000, 1.0
7.42000, 2.0
7.44000, 5.0
7.46000, 3.0
7.48000, 2.0
7.50000, 2.0
7.52000, 3.0
7.54000, 3.0
7.56000, 0.0
7.58000, 1.0
7.60000, 0.0
7.62000, 0.0
7.64000, 2.0
7.66000, 0.0
7.68000, 0.0
7.70000, 2.0
7.72000, 1.0
7.74000, 1.0
7.76000, 5.0
7.78000, 1.0
7.80000, 3.0
7.82000, 0.0
7.84000, 6.0
7.86000, 1.0
7.88000, 6.0
7.90000, 17.0
7.92000, 26.0
7.94000, 38.0
7.96000, 53.0
7.98000, 69.0
8.00000, 84.0
8.02000, 91.0
8.04000, 103.0
8.06000, 91.0
8.08000, 74.0
8.10000, 50.0
8.12000, 41.0
8.14000, 25.0
8.16000, 11.0
8.18000, 10.0
8.20000, 6.0
8.22000, 2.0
8.24000, 4.0
8.26000, 0.0
8.28000, 1.0
8.30000, 0.0
8.32000, 3.0
8.34000, 1.0
8.36000, 1.0
8.38000, 2.0
8.40000, 0.0
8.42000, 1.0
8.44000, 0.0
8.46000, 2.0
8.48000, 2.0
8.50000, 0.0
8.52000, 2.0
8.54000, 3.0
8.56000, 1.0
8.58000, 2.0
8.60000, 1.0
8.62000, 0.0
8.64000, 2.0
8.66000, 3.0
8.68000, 1.0
8.70000, 0.0
8.72000, 0.0
8.74000, 2.0
8.76000, 2.0
8.78000, 3.0
8.80000, 4.0
8.82000, 8.0
8.84000, 9.0
8.86000, 12.0
8.88000, 12.0
8.90000, 20.0
8.92000, 13.0
8.94000, 14.0
8.96000, 10.0
8.98000, 8.0
9.00000, 2.0
9.02000, 4.0
9.04000, 8.0
9.06000, 7.0
9.08000, 13.0
9.10000, 19.0
9.12000, 35.0
9.14000, 56.0
9.16000, 63.0
9.18000, 78.0
9.20000, 91.0
9.22000, 119.0
9.24000, 115.0
9.26000, 85.0
9.28000, 82.0
9.30000, 65.0
9.32000, 47.0
9.34000, 22.0
9.36000, 17.0
9.38000, 9.0
9.40000, 6.0
9.42000, 1.0
9.44000, 2.0
9.46000, 3.0
9.48000, 0.0
9.50000, 2.0
9.52000, 1.0
9.54000, 1.0
9.56000, 2.0
9.58000, 1.0
9.60000, 1.0
9.62000, 1.0
9.64000, 0.0
9.66000, 1.0
9.68000, 1.0
9.70000, 1.0
9.72000, 1.0
9.74000, 1.0
9.76000, 0.0
9.78000, 1.0
9.80000, 2.0
9.82000, 0.0
9.84000, 1.0
9.86000, 0.0
9.88000, 0.0
9.90000, 1.0
9.92000, 0.0
9.94000, 1.0
9.96000, 3.0
9.98000, 2.0
10.00000, 0.0
10.02000, 2.0
10.04000, 2.0
10.06000, 3.0
10.08000, 1.0
10.10000, 3.0
10.12000, 2.0
10.14000, 5.0
10.16000, 9.0
10.18000, 8.0
10.20000, 10.0
10.22000, 17.0
10.24000, 13.0
10.26000, 17.0
10.28000, 17.0
10.30000, 13.0
10.32000, 9.0
10.34000, 18.0
10.36000, 8.0
10.38000, 17.0
10.40000, 18.0
10.42000, 23.0
10.44000, 40.0
10.46000, 54.0
10.48000, 52.0
10.50000, 53.0
10.52000, 58.0
10.54000, 54.0
10.56000, 49.0
10.58000, 41.0
10.60000, 24.0
10.62000, 23.0
10.64000, 13.0
10.66000, 8.0
10.68000, 4.0
10.70000, 3.0
10.72000, 2.0
10.74000, 1.0
10.76000, 1.0
10.78000, 0.0
10.80000, 3.0
10.82000, 2.0
10.84000, 2.0
10.86000, 1.0
10.88000, 1.0
10.90000, 3.0
10.92000, 1.0
10.94000, 2.0
10.96000, 1.0
10.98000, 0.0
11.00000, 0.0
11.02000, 3.0
11.04000, 1.0
11.06000, 0.0
11.08000, 1.0
11.10000, 1.0
11.12000, 0.0
11.14000, 0.0
11.16000, 2.0
11.18000, 0.0
11.20000, 2.0
11.22000, 2.0
11.24000, 0.0
11.26000, 2.0
11.28000, 0.0
11.30000, 1.0
11.32000, 1.0
11.34000, 1.0
11.36000, 2.0
11.38000, 0.0
11.40000, 1.0
11.42000, 2.0
11.44000, 3.0
11.46000, 1.0
11.48000, 2.0
11.50000, 0.0
11.52000, 0.0
11.54000, 2.0
11.56000, 1.0
11.58000, 1.0
11.60000, 3.0
11.62000, 4.0
11.64000, 7.0
11.66000, 14.0
11.68000, 10.0
11.70000, 9.0
11.72000, 8.0
11.74000, 5.0
11.76000, 5.0
11.78000, 6.0
11.80000, 6.0
11.82000, 1.0
11.84000, 2.0
11.86000, 3.0
11.88000, 3.0
11.90000, 0.0
11.92000, 2.0
11.94000, 0.0
11.96000, 1.0
11.98000, 0.0
12.00000, 1.0
12.02000, 0.0
12.04000, 2.0
12.06000, 0.0
12.08000, 1.0
12.10000, 0.0
12.12000, 1.0
12.14000, 1.0
12.16000, 1.0
12.18000, 1.0
12.20000, 0.0
12.22000, 1.0
12.24000, 1.0
12.26000, 0.0
12.28000, 0.0
12.30000, 1.0
12.32000, 1.0
12.34000, 0.0
12.36000, 0.0
12.38000, 0.0
12.40000, 0.0
12.42000, 0.0
12.44000, 1.0
12.46000, 1.0
12.48000, 0.0
12.50000, 2.0
12.52000, 0.0
12.54000, 2.0
12.56000, 3.0
12.58000, 1.0
12.60000, 2.0
12.62000, 0.0
12.64000, 1.0
12.66000, 0.0
12.68000, 1.0
12.70000, 0.0
12.72000, 2.0
12.74000, 0.0
12.76000, 1.0
12.78000, 2.0
12.80000, 1.0
12.82000, 0.0
12.84000, 0.0
12.86000, 1.0
12.88000, 2.0
12.90000, 1.0
12.92000, 0.0
12.94000, 1.0
12.96000, 1.0
12.98000, 0.0
13.00000, 1.0
13.02000, 2.0
13.04000, 0.0
13.06000, 0.0
13.08000, 1.0
13.10000, 0.0
13.12000, 0.0
13.14000, 0.0
13.16000, 2.0
13.18000, 1.0
13.20000, 0.0
13.22000, 1.0
13.24000, 0.0
13.26000, 1.0
13.28000, 1.0
13.30000, 1.0
13.32000, 0.0
13.34000, 0.0
13.36000, 2.0
13.38000, 0.0
13.40000, 0.0
13.42000, 1.0
13.44000, 1.0
13.46000, 0.0
13.48000, 1.0
13.50000, 0.0
13.52000, 0.0
13.54000, 1.0
13.56000, 0.0
13.58000, 1.0
13.60000, 1.0
13.62000, 1.0
13.64000, 3.0
13.66000, 0.0
13.68000, 0.0
13.70000, 0.0
13.72000, 0.0
13.74000, 0.0
13.76000, 2.0
13.78000, 0.0
13.80000, 1.0
13.82000, 0.0
13.84000, 1.0
13.86000, 0.0
13.88000, 0.0
13.90000, 0.0
13.92000, 0.0
13.94000, 1.0
13.96000, 1.0
13.98000, 0.0
14.00000, 1.0
14.02000, 0.0
14.04000, 0.0
14.06000, 0.0
14.08000, 0.0
14.10000, 1.0
14.12000, 0.0
14.14000, 1.0
14.16000, 1.0
14.18000, 0.0
14.20000, 3.0
14.22000, 0.0
14.24000, 1.0
14.26000, 0.0
14.28000, 0.0
14.30000, 0.0
14.32000, 0.0
14.34000, 0.0
14.36000, 0.0
14.38000, 0.0
14.40000, 1.0
14.42000, 0.0
14.44000, 0.0
14.46000, 2.0
14.48000, 0.0
14.50000, 1.0
14.52000, 0.0
14.54000, 0.0
14.56000, 0.0
14.58000, 1.0
14.60000, 1.0
14.62000, 0.0
14.64000, 0.0
14.66000, 1.0
14.68000, 0.0
14.70000, 0.0
14.72000, 1.0
14.74000, 0.0
14.76000, 0.0
14.78000, 0.0
14.80000, 1.0
14.82000, 0.0
14.84000, 0.0
14.86000, 1.0
14.88000, 0.0
14.90000, 0.0
14.92000, 1.0
14.94000, 0.0
14.96000, 2.0
14.98000, 1.0
15.00000, 1.0
15.02000, 0.0
15.04000, 0.0
15.06000, 2.0
15.08000, 1.0
15.10000, 1.0
15.12000, 0.0
15.14000, 0.0
15.16000, 0.0
15.18000, 0.0
15.20000, 1.0
15.22000, 1.0
15.24000, 1.0
15.26000, 0.0
15.28000, 0.0
15.30000, 0.0
15.32000, 1.0
15.34000, 0.0
15.36000, 1.0
15.38000, 0.0
15.40000, 0.0
15.42000, 1.0
15.44000, 1.0
15.46000, 2.0
15.48000, 0.0
15.50000, 0.0
15.52000, 1.0
15.54000, 0.0
15.56000, 0.0
15.58000, 0.0
15.60000, 0.0
15.62000, 0.0
15.64000, 1.0
15.66000, 1.0
15.68000, 2.0
15.70000, 0.0
15.72000, 0.0
15.74000, 1.0
15.76000, 1.0
15.78000, 0.0
15.80000, 0.0
15.82000, 0.0
15.84000, 0.0
15.86000, 1.0
15.88000, 0.0
15.90000, 1.0
15.92000, 0.0
15.94000, 0.0
15.96000, 0.0
15.98000, 0.0
16.00000, 0.0
16.02000, 2.0
16.04000, 0.0
16.06000, 0.0
16.08000, 0.0
16.10000, 0.0
16.12000, 1.0
16.14000, 0.0
16.16000, 0.0
16.18000, 0.0
16.20000, 0.0
16.22000, 0.0
16.24000, 0.0
16.26000, 0.0
16.28000, 0.0
16.30000, 0.0
16.32000, 1.0
16.34000, 0.0
16.36000, 0.0
16.38000, 0.0
16.40000, 2.0
16.42000, 0.0
16.44000, 0.0
16.46000, 0.0
16.48000, 0.0
16.50000, 0.0
16.52000, 0.0
16.54000, 0.0
16.56000, 1.0
16.58000, 1.0
16.60000, 1.0
16.62000, 0.0
16.64000, 1.0
16.66000, 0.0
16.68000, 1.0
16.70000, 0.0
16.72000, 1.0
16.74000, 0.0
16.76000, 0.0
16.78000, 0.0
16.80000, 0.0
16.82000, 0.0
16.84000, 0.0
16.86000, 1.0
16.88000, 1.0
16.90000, 0.0
16.92000, 0.0
16.94000, 0.0
16.96000, 0.0
16.98000, 1.0
17.00000, 0.0
17.02000, 2.0
17.04000, 1.0
17.06000, 1.0
17.08000, 1.0
17.10000, 1.0
17.12000, 0.0
17.14000, 0.0
17.16000, 0.0
17.18000, 0.0
17.20000, 1.0
17.22000, 0.0
17.24000, 1.0
17.26000, 2.0
17.28000, 0.0
17.30000, 1.0
17.32000, 2.0
17.34000, 0.0
17.36000, 1.0
17.38000, 2.0
17.40000, 1.0
17.42000, 1.0
17.44000, 0.0
17.46000, 1.0
17.48000, 0.0
17.50000, 0.0
17.52000, 0.0
17.54000, 1.0
17.56000, 1.0
17.58000, 1.0
17.60000, 1.0
17.62000, 1.0
17.64000, 0.0
17.66000, 0.0
17.68000, 0.0
17.70000, 0.0
17.72000, 0.0
17.74000, 0.0
17.76000, 0.0
17.78000, 1.0
17.80000, 0.0
17.82000, 0.0
17.84000, 0.0
17.86000, 0.0
17.88000, 0.0
17.90000, 0.0
17.92000, 0.0
17.94000, 0.0
17.96000, 0.0
17.98000, 0.0
18.00000, 2.0
18.02000, 0.0
18.04000, 0.0
18.06000, 0.0
18.08000, 0.0
18.10000, 2.0
18.12000, 0.0
18.14000, 0.0
18.16000, 0.0
18.18000, 1.0
18.20000, 0.0
18.22000, 0.0
18.24000, 1.0
18.26000, 0.0
18.28000, 0.0
18.30000, 0.0
18.32000, 1.0
18.34000, 0.0
18.36000, 1.0
18.38000, 0.0
18.40000, 1.0
18.42000, 0.0
18.44000, 0.0
18.46000, 0.0
18.48000, 0.0
18.50000, 1.0
18.52000, 0.0
18.54000, 0.0
18.56000, 0.0
18.58000, 0.0
18.60000, 0.0
18.62000, 1.0
18.64000, 0.0
18.66000, 0.0
18.68000, 0.0
18.70000, 0.0
18.72000, 0.0
18.74000, 0.0
18.76000, 0.0
18.78000, 1.0
18.80000, 0.0
18.82000, 0.0
18.84000, 0.0
18.86000, 0.0
18.88000, 1.0
18.90000, 0.0
18.92000, 0.0
18.94000, 1.0
18.96000, 0.0
18.98000, 1.0
19.00000, 0.0
19.02000, 0.0
19.04000, 0.0
19.06000, 1.0
19.08000, 0.0
19.10000, 0.0
19.12000, 0.0
19.14000, 1.0
19.16000, 0.0
19.18000, 1.0
19.20000, 0.0
19.22000, 2.0
19.24000, 1.0
19.26000, 0.0
19.28000, 0.0
19.30000, 0.0
19.32000, 0.0
19.34000, 0.0
19.36000, 0.0
19.38000, 0.0
19.40000, 0.0
19.42000, 2.0
19.44000, 0.0
19.46000, 1.0
19.48000, 0.0
19.50000, 0.0
19.52000, 0.0
19.54000, 0.0
19.56000, 1.0
19.58000, 0.0
19.60000, 0.0
19.62000, 0.0
19.64000, 0.0
19.66000, 1.0
19.68000, 2.0
19.70000, 0.0
19.72000, 0.0
19.74000, 0.0
19.76000, 0.0
19.78000, 0.0
19.80000, 0.0
19.82000, 0.0
19.84000, 0.0
19.86000, 0.0
19.88000, 0.0
19.90000, 0.0
19.92000, 0.0
19.94000, 0.0
19.96000, 0.0
19.98000, 1.0
20.00000, 0.0
20.02000, 0.0
20.04000, 0.0
20.06000, 0.0
20.08000, 0.0
20.10000, 1.0
20.12000, 0.0
20.14000, 0.0
20.16000, 0.0
20.18000, 1.0
20.20000, 0.0
20.22000, 0.0
20.24000, 0.0
20.26000, 0.0
20.27000, 1.0
#ENDOFDATA   :